Folder: XRD_Fitting/data

Note: README.md
|110|222|
|---|---|
|![fitting_image1](https://github.com/ajioka-fumito/XRD_Fitting/blob/master/README/110.png)|![fitting_image2](https://github.com/ajioka-fumito/XRD_Fitting/blob/master/README/222.png)|
# Summary
本モジュールではXRD測定によって得られたヒストグラムを２つの関数の重ねわせにより表現し,K&alpha;1に起因するヒストグラムのみを取りだすことを目的としている.  
構成要素は１つのMain関数と３つのSubクラスである.  
スペクトルフィッティングは初期値を解析解に近い値で設定する必要があるため初期値の設定に工夫が要求される.そのため本モジュール化では初期値の自動設定を含めた実装を行った.


# Main
Main関数ではデータの入出力および関数フィッティングを行う.
### \__init__
#### ka1, ka2
特性ｘ線の波長(const)
#### data, x, t
XRDの計測値(既知)    
各方位について{110theta, 110intensity, ... , 222theta, 222intensity}といったようにカラムを管理すること  
xに任意の方位に対応するtheta, tに任意の方位に対応するintensityを格納

#### x1,t_max
ヒストグラムの最大値を{t_max},最大値に対応する2&theta;を{x1}に格納  
#### delta
ka2のピークはka1のピークから少しずれることが知られている.  
実験原理より  

2d sin&theta; = n&lambda;  

以下簡単のためn=1の場合のみ考える（それが一般的らしい）  
k&alpha;1,k&alpha;2についてそれぞれ上式を用いると


2d sin(&theta;<sub>k&alpha;1</sub>) = &lambda;<sub>k&alpha;1</sub>  
2d sin(&theta;<sub>k&alpha;2</sub>) = &lambda;<sub>k&alpha;2</sub>  

ここで&theta;<sub>k&alpha;2</sub> = &theta;<sub>k&alpha;1</sub> + &Delta;&theta; より

2d sin(&theta;<sub>k&alpha;2</sub>) = 2d sin(&theta;<sub>k&alpha;1</sub> + &Delta;&theta;) = &lambda;<sub>k&alpha;2</sub>  

上式について&Delta;&theta;以外が既知であるため&Delta;&theta;は数値計算により近似値が計算可能である.  
ここで計算される&Delta;&theta;はブラック条件から算出されているためXRDの結果上では2&Delta;&theta;ずれるため2倍してから格納している
#### noise
ノイズの値を格納 (scalar)
#### init_params (vector)
2つのフィッティング関数に対して  
[noize,a<sub>k&alpha;1</sub> ,b<sub>k&alpha;1</sub>,c<sub>k&alpha;1</sub>,a<sub>k&alpha;2</sub>,b<sub>k&alpha;2</sub>,c<sub>k&alpha;2</sub>]の順に初期値を格納 
#### ・ noise
特に説明なし  
#### ・ a<sub>k&alpha;1</sub>
t_maxの0.8倍の値を設定（最大値を初期値とすると上ブレした際にそれを補うためにa<sub>k&alpha;2</sub>が負の値に飛んでしまうことがあったため）
#### ・ a<sub>k&alpha;2</sub>
[1]よりa<sub>k&alpha;1</sub>の0.4倍の値を取ると考えられているためこの値を採用  

#### ・ b<sub>k&alpha;1</sub>
x1の値を採用
#### ・ b<sub>k&alpha;2</sub>
x1 + &Delta;&theta;の値を採用
#### ・ c<sub>k&alpha;1</sub>
大体0.09~0.10の間に収まるためa<sub>k&alpha;1</sub>と同様のニュアンスで0.8に設定
#### ・ c<sub>k&alpha;2</sub>
[1]よりc<sub>k&alpha;1</sub>に対して少し大きな値を取ることが知られているため1.1倍の傾斜をかけた  
[2]では２つのピークが相似形で有ることを仮定して議論をすすめていたため,傾斜なしでも試したが,怪しい挙動を示したためやめておくのが無難.一応この現象を裏付ける文献[a3]も見つけておいた  

#### popt
フィッティング後のパラメータを格納. 構成は init_params と同様
# Subclass
Subclassは3つ存在していて用途別に分類した.
## Visualize
### plot
fittingが適切に行われたかを確認
## SubFunction
### bragg
bragg条件に基づく関数で,以下delta関数で用いる.  
numpyの三角関数計算はrad単位で行われるが,XRDのデータはdegree単位であるため変換を挟んでいる.  
**出力:deltaを代入したときの絶対値誤差(scalar)**
### max_intensity
初期値の設定に測定結果の最大値と対応する角度が必要となる  
**出力:{対応するx,tの最大値}(vector)**
### delta
&Delta;&theta;の近似解を計算する.  
&Delta;&theta;の値が高々0.5(degree)であること,XRDの測定幅から有効数字が下3桁であることを考えてこの実装にした.  
**出力:deltaの計算解(scalar)**
### noise
ヒストグラムのビークは中心に位置する.そのためヒストグラムの前後100点の平均値をノイズの初期値とした.  
**出力:noise(scalar)**
## FittingFunction
curve fitting を行う際に使用する関数群
### ・gauss
入力に対応するガウス関数のyを返す  
**引数：ｘ(vector), params(a,b,c)**  
**返り値：入力したｘ(vector)に対応するy(vector)**
### ・gauss_puls
ka1とka2に対応するガウス関数を重ね合わせた結果を出力する関数  
**引数：ｘ(vector), params(a,b,c)**  
**返り値：入力した

File: 20%.csv
111theta,111intensity,200theta,200intensity,220theta,220intensity,311theta,311intensity,222theta,222intensity,400theta,400intensity
18.5,20.8,21.5,54.2,31,95.8,37,112.5,49.5,79.2,51.89,112.5
18.52,37.5,21.52,50,31.02,133.3,37.02,104.2,49.52,70.8,51.91,133.3
18.54,8.3,21.54,66.7,31.04,112.5,37.04,104.2,49.54,87.5,51.93,112.5
18.56,41.7,21.56,50,31.06,95.8,37.06,116.7,49.56,79.2,51.95,112.5
18.58,37.5,21.58,58.3,31.08,116.7,37.08,104.2,49.58,54.2,51.97,104.2
18.6,66.7,21.6,37.5,31.1,104.2,37.1,79.2,49.6,70.8,51.99,112.5
18.62,70.8,21.62,66.7,31.12,87.5,37.12,129.2,49.62,125,52.01,137.5
18.64,41.7,21.64,45.8,31.14,100,37.14,125,49.64,100,52.03,125
18.66,62.5,21.66,37.5,31.16,150,37.16,95.8,49.66,95.8,52.05,137.5
18.68,37.5,21.68,37.5,31.18,145.8,37.18,112.5,49.68,108.3,52.07,133.3
18.7,54.2,21.7,66.7,31.2,100,37.2,108.3,49.7,54.2,52.09,208.3
18.72,25,21.72,104.2,31.22,141.7,37.22,129.2,49.72,66.7,52.11,191.7
18.74,50,21.74,70.8,31.24,100,37.24,137.5,49.74,54.2,52.13,183.3
18.76,37.5,21.76,54.2,31.26,137.5,37.26,154.2,49.76,79.2,52.15,191.7
18.78,33.3,21.78,37.5,31.28,129.2,37.28,79.2,49.78,91.7,52.17,250
18.8,58.3,21.8,58.3,31.3,100,37.3,75,49.8,62.5,52.19,254.2
18.82,33.3,21.82,41.7,31.32,112.5,37.32,179.2,49.82,100,52.21,291.7
18.84,29.2,21.84,41.7,31.34,116.7,37.34,137.5,49.84,95.8,52.23,275
18.86,33.3,21.86,66.7,31.36,116.7,37.36,104.2,49.86,100,52.25,400
18.88,37.5,21.88,66.7,31.38,120.8,37.38,150,49.88,75,52.27,433.3
18.9,33.3,21.9,58.3,31.4,125,37.4,137.5,49.9,104.2,52.29,558.3
18.92,33.3,21.92,58.3,31.42,104.2,37.42,129.2,49.92,91.7,52.31,458.3
18.94,37.5,21.94,54.2,31.44,125,37.44,129.2,49.94,83.3,52.33,641.7
18.96,37.5,21.96,75,31.46,125,37.46,95.8,49.96,104.2,52.35,479.2
18.98,54.2,21.98,66.7,31.48,154.2,37.48,104.2,49.98,87.5,52.37,625
19,29.2,22,54.2,31.5,116.7,37.5,129.2,50,70.8,52.39,575
19.02,45.8,22.02,33.3,31.52,175,37.52,162.5,50.02,116.7,52.41,516.7
19.04,70.8,22.04,29.2,31.54,133.3,37.54,145.8,50.04,120.8,52.43,425
19.06,50,22.06,33.3,31.56,116.7,37.56,87.5,50.06,100,52.45,416.7
19.08,58.3,22.08,62.5,31.58,141.7,37.58,125,50.08,91.7,52.47,408.3
19.1,37.5,22.1,66.7,31.6,150,37.6,125,50.1,83.3,52.49,291.7
19.12,75,22.12,58.3,31.62,154.2,37.62,183.3,50.12,87.5,52.51,341.7
19.14,54.2,22.14,108.3,31.64,120.8,37.64,154.2,50.14,70.8,52.53,279.2
19.16,33.3,22.16,70.8,31.66,145.8,37.66,120.8,50.16,66.7,52.55,350
19.18,62.5,22.18,54.2,31.68,141.7,37.68,91.7,50.18,91.7,52.57,258.3
19.2,41.7,22.2,70.8,31.7,141.7,37.7,145.8,50.2,112.5,52.59,295.8
19.22,37.5,22.22,83.3,31.72,120.8,37.72,141.7,50.22,83.3,52.61,287.5
19.24,70.8,22.24,100,31.74,137.5,37.74,129.2,50.24,58.3,52.63,395.8
19.26,70.8,22.26,58.3,31.76,162.5,37.76,141.7,50.26,75,52.65,366.7
19.28,75,22.28,54.2,31.78,116.7,37.78,145.8,50.28,70.8,52.67,379.2
19.3,70.8,22.3,91.7,31.8,137.5,37.8,191.7,50.3,112.5,52.69,391.7
19.32,45.8,22.32,87.5,31.82,141.7,37.82,141.7,50.32,112.5,52.71,408.3
19.34,62.5,22.34,129.2,31.84,175,37.84,166.7,50.34,91.7,52.73,341.7
19.36,58.3,22.36,54.2,31.86,187.5,37.86,183.3,50.36,91.7,52.75,266.7
19.38,58.3,22.38,87.5,31.88,158.3,37.88,191.7,50.38,120.8,52.77,345.8
19.4,79.2,22.4,70.8,31.9,154.2,37.9,179.2,50.4,137.5,52.79,241.7
19.42,145.8,22.42,83.3,31.92,216.7,37.92,191.7,50.42,95.8,52.81,225
19.44,120.8,22.44,66.7,31.94,208.3,37.94,254.2,50.44,75,52.83,241.7
19.46,150,22.46,116.7,31.96,204.2,37.96,225,50.46,104.2,52.85,195.8
19.48,116.7,22.48,125,31.98,204.2,37.98,258.3,50.48,154.2,52.87,212.5
19.5,120.8,22.5,150,32,166.7,38,341.7,50.5,91.7,52.89,137.5
19.52,179.2,22.52,154.2,32.02,216.7,38.02,337.5,50.52,108.3,52.91,79.2
19.54,150,22.54,154.2,32.04,295.8,38.04,433.3,50.54,120.8,52.93,166.7
19.56,170.8,22.56,229.2,32.06,229.2,38.06,541.7,50.56,100,52.95,125
19.58,245.8,22.58,241.7,32.08,308.3,38.08,770.8,50.58,120.8,52.97,154.2
19.6,275,22.6,225,32.1,341.7,38.1,733.3,50.6,129.2,52.99,104.2
19.62,300,22.62,262.5,32.12,429.2,38.12,1079.2,50.62,129.2,53.01,137.5
19.64,412.5,22.64,333.3,32.14,275,38.14,1262.5,50.64,91.7,53.03,120.8
19.66,420.8,22.66,454.2,32.16,404.2,38.16,1558.3,50.66,133.3,53.05,129.2
19.68,450,22.68,487.5,32.18,541.7,38.18,1512.5,50.68,179.2,53.07,104.2
19.7,362.5,22.7,595.8,32.2,616.7,38.2,1470.8,50.7,162.5,53.09,120.8
19.72,291.7,22.72,591.7,32.22,700,38.22,1291.7,50.72,141.7,53.11,120.8
19.74,233.3,22.74,691.7,32.24,875,38.24,1100,50.74,187.5,53.13,145.8
19.76,250,22.76,779.2,32.26,1166.7,38.26,841.7,50.76,250,53.15,83.3
19.78,262.5,22.78,666.7,32.28,1450,38.28,900,50.78,175,53.17,75
19.8,200,22.8,666.7,32.3,1841.7,38.3,741.7,50.8,275,53.19,70.8
19.82,200,22.82,541.7,32.32,2325,38.32,766.7,50.82,325,53.21,112.5
19.84,162.5,22.84,466.7,32.34,3279.2,38.34,737.5,50.84,395.8,53.23,87.5
19.86,137.5,22.86,537.5,32.36,4225,38.36,870.8,50.86,454.2,53.25,150
19.88,108.3,22.88,500,32.38,5091.7,38.38,833.3,50.88,541.7,53.27,116.7
19.9,87.5,22.9,429.2,32.4,5666.7,38.4,904.2,50.9,591.7,53.29,95.8
19.92,83.3,22.92,445.8,32.42,5083.3,38.42,808.3,50.92,695.8,53.31,70.8
19.94,54.2,22.94,312.5,32.44,4350,38.44,858.3,50.94,612.5,53.33,79.2
19.96,66.7,22.96,320.8,32.46,3454.2,38.46,737.5,50.96,579.2,53.35,83.3
19.98,50,22.98,204.2,32.48,2808.3,38.48,637.5,50.98,487.5,53.37,91.7
20,79.2,23,133.3,32.5,2445.8,38.5,445.8,51,454.2,53.39,125
20.02,79.2,23.02,116.7,32.52,2304.2,38.52,425,51.02,395.8,53.41,95.8
20.04,83.3,23.04,162.5,32.54,2562.5,38.54,391.7,51.04,333.3,53.43,83.3
20.06,50,23.06,87.5,32.56,2883.3,38.56,329.2,51.06,270.8,53.45,112.5
20.08,79.2,23.08,100,32.58,3129.2,38.58,233.3,51.08,304.2,53.47,133.3
20.1,41.7,23.1,108.3,32.6,3379.2,38.6,241.7,51.1,270.8,53.49,112.5
20.12,70.8,23.12,95.8,32.62,3095.8,38.62,183.3,51.12,250,53.51,100
20.14,45.8,23.14,70.8,32.64,2550,38.64,200,51.14,291.7,53.53,108.3
20.16,62.5,23.16,66.7,32.66,1925,38.66,125,51.16,258.3,53.55,91.7
20.18,83.3,23.18,70.8,32.68,1358.3,38.68,141.7,51.18,312.5,53.57,108.3
20.2,87.5,23.2,91.7,32.7,1158.3,38.7,133.3,51.2,358.3,53.59,79.2
20.22,50,23.22,41.7,32.72,887.5,38.72,158.3,51.22,383.3,53.61,83.3
20.24,87.5,23.24,54.2,32.74,679.2,38.74,137.5,51.24,387.5,53.63,83.3
20.26,70.8,23.26,66.7,32.76,612.5,38.76,137.5,51.26,412.5,53.65,75
20.28,79.2,23.28,70.8,32.78,458.3,38.78,125,51.28,454.2,53.67,91.7
20.3,54.2,23.3,66.7,32.8,420.8,38.8,154.2,51.3,383.3,53.69,79.2
20.32,70.8,23.32,58.3,32.82,375,38.82,137.5,51.32,191.7,53.71,129.2
20.34,25,23.34,66.7,32.84,337.5,38.84,112.5,51.34,208.3,53.73,87.5
20.36,54.2,23.36,75,32.86,333.3,38.86,116.7,51.36,266.7,53.75,83.3
20.38,50,23.38,45.8,32.88,275,38.88,108.3,51.38,208.3,53.77,108.3
20.4,75,23.4,62.5,32.9,320.8,38.9,133.3,51.4,225,53.79,120.8
20.42,54.2,23.42,50,32.92,229.2,38.92,120.8,51.42,175,53.81,95.8
20.44,70.8,23.44,45.8,32.94,254.2,38.94,112.5,51.44,145.8,53.83,91.7
20.46,62.5,23.46,79.2,32.96,254.2,38.96,100,51.46,158.3,53.85,75
20.48,45.8,23.48,66.7,32.98,187.5,38.98,100,51.48,166.7,53.87,120.8
20.5,54.2,23.5,50,33,295.8,39,108.3,51.5,154.2,53.89,95.8
20.52,58.3,23.52,79.2,33.02,204.2,39.02,104.2,51.52,112.5,53.91,66.7
20.54,45.8,23.54,54.2,33.04,191.7,39.04,150,51.54,112.5,53.93,75
20.56,50,23.56,62.5,33.06,225,39.06,129.2,51.56,120.8,53.95,75
20.58,50,23.58,62.5,33.08,141.7,39.08,91.7,51.58,137.5,53.97,70.8
20.6,66.7,23.6,62.5,33.1,208.3,39.1,116.7,51.6,108.3,53.99,79.2
20.62,33.3,23.62,54.2,33.12,245.8,39.12,108.3,51.62,129.2,,
20.64,70.8,23.64,75,33.14,191.7,39.14,83.3,51.64,104.2,,
20.66,37.5,23.66,58.3,33.16,220.8,39.16,100,51.66,145.8,,
20.68,54.2,23.68,83.3,33.18,170.8,39.18,91.7,51.68,187.5,,
20.7,58.3,23.7,70.8,33.2,204.2,39.2,116.7,51.7,145.8,,
20.72,58.3,23.72,66.7,33.22,179.2,39.22,116.7,51.72,100,,
20.74,70.8,23.74,58.3,33.24,183.3,39.24,116.7,51.74,95.8,,
20.76,75,23.76,58.3,33.26,212.5,39.26,125,51.76,133.3,,
20.78,54.2,23.78,70.8,33.28,191.7,39.28,87.5,51.78,116.7,,
20.8,41.7,23.8,66.7,33.3,200,39.3,87.5,51.8,100,,
20.82,41.7,23.82,58.3,33.32,200,39.32,112.5,51.82,133.3,,
20.84,29.2,23.84,83.3,33.34,183.3,39.34,87.5,51.84,108.3,,
20.86,70.8,23.86,66.7,33.36,129.2,39.36,150,51.86,104.2,,
20.88,54.2,23.88,50,33.38,183.3,39.38,133.3,51.88,100,,
20.9,70.8,23.9,104.2,33.4,158.3,39.4,100,,,,
20.92,37.5,23.92,41.7,33.42,133.3,39.42,95.8,,,,
20.94,54.2,23.94,58.3,33.44,191.7,39.44,100,,,,
20.96,45.8,23.96,83.3,33.46,175,39.46,75,,,,
20.98,54.2,23.98,83.3,33.48,141.7,39.48,137.5,,,,
21,41.7,24,58.3,33.5,141.7,39.5,83.3,,,,
,,,,33.52,187.5,,,,,,
,,,,33.54,166.7,,,,,,
,,,,33.56,120.8,,,,,,
,,,,33.58,137.5,,,,,,
,,,,33.6,191.7,,,,,,
,,,,33.62,179.2,,,,,,
,,,,33.64,162.5,,,,,,
,,,,33.66,220.8,,,,,,
,,,,33.68,133.3,,,,,,
,,,,33.7,162.5,,,,,,
,,,,33.72,179.2,,,,,,
,,,,33.74,158.3,,,,,,
,,,,33.76,183.3,,,,,,
,,,,33.78,191.7,,,,,,
,,,,33.8,137.5,,,,,,
,,,,33.82,91.7,,,,,,
,,,,33.84,195.8,,,,,,
,,,,33.86,195.8,,,,,,
,,,,33.88,158.3,,,,,,
,,,,33.9,200,,,,,,
,,,,33.92,179.2,,,,,,
,,,,33.94,150,,,,,,
,,,,33.96,154.2,,,,,,
,,,,33.98,166.7,,,,,,
,,,,34,137.5,,,,,,

File: 40%.csv
111theta,111intensity,200theta,200intensity,220theta,220intensity,311theta,311intensity,222theta,222intensity,400theta,400intensity
18.5,75,21.5,54.2,31,87.5,37,87.5,49.5,79.2,51.9,120.8
18.52,50,21.52,87.5,31.02,91.7,37.02,100,49.52,104.2,51.92,100
18.54,79.2,21.54,95.8,31.04,83.3,37.04,120.8,49.54,83.3,51.94,95.8
18.56,50,21.56,83.3,31.06,62.5,37.06,150,49.56,79.2,51.96,129.2
18.58,62.5,21.58,75,31.08,75,37.08,133.3,49.58,66.7,51.98,145.8
18.6,41.7,21.6,75,31.1,95.8,37.1,116.7,49.6,108.3,52,179.2
18.62,45.8,21.62,58.3,31.12,70.8,37.12,129.2,49.62,79.2,52.02,154.2
18.64,66.7,21.64,75,31.14,100,37.14,112.5,49.64,108.3,52.04,187.5
18.66,66.7,21.66,79.2,31.16,79.2,37.16,133.3,49.66,50,52.06,220.8
18.68,66.7,21.68,45.8,31.18,70.8,37.18,145.8,49.68,83.3,52.08,204.2
18.7,62.5,21.7,75,31.2,108.3,37.2,70.8,49.7,129.2,52.1,208.3
18.72,79.2,21.72,95.8,31.22,87.5,37.22,137.5,49.72,66.7,52.12,187.5
18.74,54.2,21.74,75,31.24,91.7,37.24,104.2,49.74,104.2,52.14,195.8
18.76,75,21.76,95.8,31.26,104.2,37.26,129.2,49.76,108.3,52.16,233.3
18.78,37.5,21.78,66.7,31.28,125,37.28,104.2,49.78,45.8,52.18,279.2
18.8,70.8,21.8,66.7,31.3,66.7,37.3,141.7,49.8,91.7,52.2,258.3
18.82,54.2,21.82,75,31.32,120.8,37.32,154.2,49.82,41.7,52.22,279.2
18.84,58.3,21.84,87.5,31.34,154.2,37.34,91.7,49.84,95.8,52.24,283.3
18.86,50,21.86,75,31.36,87.5,37.36,108.3,49.86,50,52.26,358.3
18.88,79.2,21.88,45.8,31.38,112.5,37.38,104.2,49.88,83.3,52.28,370.8
18.9,62.5,21.9,104.2,31.4,116.7,37.4,137.5,49.9,70.8,52.3,458.3
18.92,79.2,21.92,50,31.42,108.3,37.42,137.5,49.92,87.5,52.32,420.8
18.94,91.7,21.94,108.3,31.44,133.3,37.44,162.5,49.94,79.2,52.34,379.2
18.96,79.2,21.96,70.8,31.46,120.8,37.46,125,49.96,120.8,52.36,375
18.98,41.7,21.98,120.8,31.48,91.7,37.48,112.5,49.98,62.5,52.38,466.7
19,70.8,22,66.7,31.5,108.3,37.5,187.5,50,66.7,52.4,420.8
19.02,50,22.02,83.3,31.52,112.5,37.52,129.2,50.02,112.5,52.42,362.5
19.04,41.7,22.04,79.2,31.54,158.3,37.54,150,50.04,70.8,52.44,308.3
19.06,58.3,22.06,100,31.56,133.3,37.56,129.2,50.06,87.5,52.46,300
19.08,125,22.08,137.5,31.58,166.7,37.58,145.8,50.08,100,52.48,283.3
19.1,95.8,22.1,91.7,31.6,83.3,37.6,100,50.1,87.5,52.5,312.5
19.12,95.8,22.12,100,31.62,179.2,37.62,125,50.12,133.3,52.52,262.5
19.14,100,22.14,87.5,31.64,137.5,37.64,154.2,50.14,104.2,52.54,291.7
19.16,45.8,22.16,91.7,31.66,170.8,37.66,112.5,50.16,100,52.56,262.5
19.18,50,22.18,95.8,31.68,145.8,37.68,191.7,50.18,116.7,52.58,312.5
19.2,108.3,22.2,125,31.7,183.3,37.7,166.7,50.2,100,52.6,245.8
19.22,100,22.22,108.3,31.72,158.3,37.72,150,50.22,83.3,52.62,312.5
19.24,112.5,22.24,108.3,31.74,145.8,37.74,179.2,50.24,91.7,52.64,279.2
19.26,116.7,22.26,137.5,31.76,141.7,37.76,183.3,50.26,133.3,52.66,258.3
19.28,95.8,22.28,158.3,31.78,170.8,37.78,179.2,50.28,112.5,52.68,312.5
19.3,116.7,22.3,125,31.8,220.8,37.8,200,50.3,108.3,52.7,316.7
19.32,170.8,22.32,95.8,31.82,187.5,37.82,179.2,50.32,104.2,52.72,241.7
19.34,141.7,22.34,150,31.84,166.7,37.84,216.7,50.34,62.5,52.74,250
19.36,129.2,22.36,137.5,31.86,212.5,37.86,266.7,50.36,91.7,52.76,212.5
19.38,175,22.38,145.8,31.88,212.5,37.88,179.2,50.38,120.8,52.78,279.2
19.4,187.5,22.4,166.7,31.9,220.8,37.9,241.7,50.4,95.8,52.8,212.5
19.42,200,22.42,179.2,31.92,229.2,37.92,316.7,50.42,83.3,52.82,200
19.44,187.5,22.44,250,31.94,179.2,37.94,345.8,50.44,83.3,52.84,204.2
19.46,270.8,22.46,187.5,31.96,250,37.96,341.7,50.46,116.7,52.86,195.8
19.48,270.8,22.48,233.3,31.98,229.2,37.98,379.2,50.48,145.8,52.88,133.3
19.5,341.7,22.5,254.2,32,204.2,38,487.5,50.5,133.3,52.9,175
19.52,325,22.52,262.5,32.02,258.3,38.02,445.8,50.52,166.7,52.92,170.8
19.54,412.5,22.54,316.7,32.04,283.3,38.04,554.2,50.54,166.7,52.94,158.3
19.56,416.7,22.56,325,32.06,270.8,38.06,583.3,50.56,150,52.96,150
19.58,583.3,22.58,383.3,32.08,279.2,38.08,845.8,50.58,125,52.98,125
19.6,608.3,22.6,400,32.1,387.5,38.1,645.8,50.6,108.3,53,120.8
19.62,595.8,22.62,458.3,32.12,308.3,38.12,870.8,50.62,91.7,53.02,91.7
19.64,654.2,22.64,520.8,32.14,450,38.14,1012.5,50.64,154.2,53.04,100
19.66,700,22.66,637.5,32.16,500,38.16,966.7,50.66,137.5,53.06,100
19.68,650,22.68,666.7,32.18,525,38.18,845.8,50.68,258.3,53.08,116.7
19.7,566.7,22.7,612.5,32.2,616.7,38.2,983.3,50.7,191.7,53.1,141.7
19.72,487.5,22.72,675,32.22,666.7,38.22,891.7,50.72,141.7,53.12,158.3
19.74,612.5,22.74,741.7,32.24,866.7,38.24,808.3,50.74,208.3,53.14,145.8
19.76,558.3,22.76,600,32.26,1175,38.26,795.8,50.76,220.8,53.16,116.7
19.78,533.3,22.78,620.8,32.28,1454.2,38.28,787.5,50.78,229.2,53.18,87.5
19.8,445.8,22.8,683.3,32.3,1725,38.3,725,50.8,266.7,53.2,116.7
19.82,412.5,22.82,545.8,32.32,2012.5,38.32,670.8,50.82,333.3,53.22,133.3
19.84,304.2,22.84,533.3,32.34,2587.5,38.34,691.7,50.84,425,53.24,133.3
19.86,250,22.86,508.3,32.36,2975,38.36,675,50.86,408.3,53.26,116.7
19.88,316.7,22.88,508.3,32.38,3233.3,38.38,691.7,50.88,366.7,53.28,83.3
19.9,216.7,22.9,445.8,32.4,3062.5,38.4,745.8,50.9,454.2,53.3,104.2
19.92,250,22.92,408.3,32.42,2512.5,38.42,487.5,50.92,466.7,53.32,91.7
19.94,250,22.94,370.8,32.44,2391.7,38.44,600,50.94,375,53.34,125
19.96,220.8,22.96,358.3,32.46,2354.2,38.46,554.2,50.96,337.5,53.36,95.8
19.98,241.7,22.98,258.3,32.48,2070.8,38.48,458.3,50.98,375,53.38,104.2
20,245.8,23,170.8,32.5,2000,38.5,441.7,51,362.5,53.4,108.3
20.02,204.2,23.02,225,32.52,1937.5,38.52,454.2,51.02,291.7,53.42,120.8
20.04,237.5,23.04,154.2,32.54,1858.3,38.54,325,51.04,304.2,53.44,116.7
20.06,229.2,23.06,125,32.56,2195.8,38.56,329.2,51.06,258.3,53.46,79.2
20.08,291.7,23.08,154.2,32.58,2258.3,38.58,304.2,51.08,250,53.48,91.7
20.1,233.3,23.1,75,32.6,1925,38.6,241.7,51.1,233.3,53.5,75
20.12,233.3,23.12,112.5,32.62,1916.7,38.62,275,51.12,258.3,53.52,79.2
20.14,208.3,23.14,100,32.64,1604.2,38.64,254.2,51.14,279.2,53.54,83.3
20.16,208.3,23.16,108.3,32.66,1375,38.66,183.3,51.16,362.5,53.56,95.8
20.18,187.5,23.18,108.3,32.68,1016.7,38.68,200,51.18,312.5,53.58,83.3
20.2,183.3,23.2,79.2,32.7,937.5,38.7,145.8,51.2,270.8,53.6,100
20.22,220.8,23.22,120.8,32.72,820.8,38.72,104.2,51.22,225,53.62,108.3
20.24,195.8,23.24,120.8,32.74,712.5,38.74,175,51.24,308.3,53.64,83.3
20.26,170.8,23.26,95.8,32.76,600,38.76,162.5,51.26,316.7,53.66,100
20.28,183.3,23.28,112.5,32.78,466.7,38.78,129.2,51.28,300,53.68,91.7
20.3,129.2,23.3,83.3,32.8,479.2,38.8,137.5,51.3,262.5,53.7,95.8
20.32,116.7,23.32,95.8,32.82,462.5,38.82,150,51.32,258.3,53.72,79.2
20.34,116.7,23.34,66.7,32.84,341.7,38.84,137.5,51.34,275,53.74,100
20.36,95.8,23.36,79.2,32.86,300,38.86,137.5,51.36,195.8,53.76,79.2
20.38,116.7,23.38,91.7,32.88,287.5,38.88,162.5,51.38,208.3,53.78,91.7
20.4,125,23.4,75,32.9,325,38.9,100,51.4,191.7,53.8,87.5
20.42,120.8,23.42,70.8,32.92,362.5,38.92,141.7,51.42,158.3,53.82,91.7
20.44,116.7,23.44,75,32.94,287.5,38.94,120.8,51.44,158.3,53.84,79.2
20.46,95.8,23.46,79.2,32.96,254.2,38.96,116.7,51.46,233.3,53.86,120.8
20.48,83.3,23.48,83.3,32.98,258.3,38.98,166.7,51.48,137.5,53.88,83.3
20.5,112.5,23.5,83.3,33,258.3,39,125,51.5,116.7,53.9,87.5
20.52,83.3,23.52,125,33.02,220.8,39.02,87.5,51.52,162.5,53.92,112.5
20.54,125,23.54,75,33.04,258.3,39.04,125,51.54,166.7,53.94,116.7
20.56,75,23.56,79.2,33.06,204.2,39.06,70.8,51.56,104.2,53.96,91.7
20.58,95.8,23.58,83.3,33.08,250,39.08,87.5,51.58,137.5,53.98,87.5
20.6,83.3,23.6,83.3,33.1,179.2,39.1,133.3,51.6,125,54,54.2
20.62,66.7,23.62,45.8,33.12,208.3,39.12,83.3,51.62,150,,
20.64,87.5,23.64,112.5,33.14,170.8,39.14,154.2,51.64,141.7,,
20.66,83.3,23.66,79.2,33.16,154.2,39.16,120.8,51.66,150,,
20.68,75,23.68,45.8,33.18,200,39.18,116.7,51.68,95.8,,
20.7,91.7,23.7,58.3,33.2,216.7,39.2,83.3,51.7,104.2,,
20.72,54.2,23.72,91.7,33.22,145.8,39.22,145.8,51.72,158.3,,
20.74,58.3,23.74,45.8,33.24,141.7,39.24,112.5,51.74,129.2,,
20.76,83.3,23.76,66.7,33.26,162.5,39.26,70.8,51.76,87.5,,
20.78,58.3,23.78,62.5,33.28,175,39.28,112.5,51.78,162.5,,
20.8,104.2,23.8,75,33.3,183.3,39.3,91.7,51.8,158.3,,
20.82,75,23.82,104.2,33.32,179.2,39.32,129.2,51.82,104.2,,
20.84,66.7,23.84,45.8,33.34,141.7,39.34,75,51.84,70.8,,
20.86,58.3,23.86,50,33.36,187.5,39.36,91.7,51.86,150,,
20.88,54.2,23.88,75,33.38,166.7,39.38,112.5,51.88,120.8,,
20.9,95.8,23.9,58.3,33.4,154.2,39.4,91.7,,,,
20.92,58.3,23.92,95.8,33.42,179.2,39.42,108.3,,,,
20.94,79.2,23.94,50,33.44,129.2,39.44,108.3,,,,
20.96,83.3,23.96,58.3,33.46,137.5,39.46,183.3,,,,
20.98,108.3,23.98,79.2,33.48,125,39.48,100,,,,
21,70.8,24,20.8,33.5,162.5,39.5,104.2,,,,
,,,,33.52,145.8,,,,,,
,,,,33.54,125,,,,,,
,,,,33.56,179.2,,,,,,
,,,,33.58,154.2,,,,,,
,,,,33.6,216.7,,,,,,
,,,,33.62,112.5,,,,,,
,,,,33.64,120.8,,,,,,
,,,,33.66,162.5,,,,,,
,,,,33.68,154.2,,,,,,
,,,,33.7,116.7,,,,,,
,,,,33.72,133.3,,,,,,
,,,,33.74,158.3,,,,,,
,,,,33.76,183.3,,,,,,
,,,,33.78,170.8,,,,,,
,,,,33.8,150,,,,,,
,,,,33.82,150,,,,,,
,,,,33.84,154.2,,,,,,
,,,,33.86,137.5,,,,,,
,,,,33.88,120.8,,,,,,
,,,,33.9,187.5,,,,,,
,,,,33.92,120.8,,,,,,
,,,,33.94,137.5,,,,,,
,,,,33.96,145.8,,,,,,
,,,,33.98,116.7,,,,,,
,,,,34,87.5,,,,,,