Folder: XRD_Fitting/data/modified_WA

Note: README.md
|110|222|
|---|---|
|![fitting_image1](https://github.com/ajioka-fumito/XRD_Fitting/blob/master/README/110.png)|![fitting_image2](https://github.com/ajioka-fumito/XRD_Fitting/blob/master/README/222.png)|
# Summary
本モジュールではXRD測定によって得られたヒストグラムを２つの関数の重ねわせにより表現し,K&alpha;1に起因するヒストグラムのみを取りだすことを目的としている.  
構成要素は１つのMain関数と３つのSubクラスである.  
スペクトルフィッティングは初期値を解析解に近い値で設定する必要があるため初期値の設定に工夫が要求される.そのため本モジュール化では初期値の自動設定を含めた実装を行った.


# Main
Main関数ではデータの入出力および関数フィッティングを行う.
### \__init__
#### ka1, ka2
特性ｘ線の波長(const)
#### data, x, t
XRDの計測値(既知)    
各方位について{110theta, 110intensity, ... , 222theta, 222intensity}といったようにカラムを管理すること  
xに任意の方位に対応するtheta, tに任意の方位に対応するintensityを格納

#### x1,t_max
ヒストグラムの最大値を{t_max},最大値に対応する2&theta;を{x1}に格納  
#### delta
ka2のピークはka1のピークから少しずれることが知られている.  
実験原理より  

2d sin&theta; = n&lambda;  

以下簡単のためn=1の場合のみ考える（それが一般的らしい）  
k&alpha;1,k&alpha;2についてそれぞれ上式を用いると


2d sin(&theta;<sub>k&alpha;1</sub>) = &lambda;<sub>k&alpha;1</sub>  
2d sin(&theta;<sub>k&alpha;2</sub>) = &lambda;<sub>k&alpha;2</sub>  

ここで&theta;<sub>k&alpha;2</sub> = &theta;<sub>k&alpha;1</sub> + &Delta;&theta; より

2d sin(&theta;<sub>k&alpha;2</sub>) = 2d sin(&theta;<sub>k&alpha;1</sub> + &Delta;&theta;) = &lambda;<sub>k&alpha;2</sub>  

上式について&Delta;&theta;以外が既知であるため&Delta;&theta;は数値計算により近似値が計算可能である.  
ここで計算される&Delta;&theta;はブラック条件から算出されているためXRDの結果上では2&Delta;&theta;ずれるため2倍してから格納している
#### noise
ノイズの値を格納 (scalar)
#### init_params (vector)
2つのフィッティング関数に対して  
[noize,a<sub>k&alpha;1</sub> ,b<sub>k&alpha;1</sub>,c<sub>k&alpha;1</sub>,a<sub>k&alpha;2</sub>,b<sub>k&alpha;2</sub>,c<sub>k&alpha;2</sub>]の順に初期値を格納 
#### ・ noise
特に説明なし  
#### ・ a<sub>k&alpha;1</sub>
t_maxの0.8倍の値を設定（最大値を初期値とすると上ブレした際にそれを補うためにa<sub>k&alpha;2</sub>が負の値に飛んでしまうことがあったため）
#### ・ a<sub>k&alpha;2</sub>
[1]よりa<sub>k&alpha;1</sub>の0.4倍の値を取ると考えられているためこの値を採用  

#### ・ b<sub>k&alpha;1</sub>
x1の値を採用
#### ・ b<sub>k&alpha;2</sub>
x1 + &Delta;&theta;の値を採用
#### ・ c<sub>k&alpha;1</sub>
大体0.09~0.10の間に収まるためa<sub>k&alpha;1</sub>と同様のニュアンスで0.8に設定
#### ・ c<sub>k&alpha;2</sub>
[1]よりc<sub>k&alpha;1</sub>に対して少し大きな値を取ることが知られているため1.1倍の傾斜をかけた  
[2]では２つのピークが相似形で有ることを仮定して議論をすすめていたため,傾斜なしでも試したが,怪しい挙動を示したためやめておくのが無難.一応この現象を裏付ける文献[a3]も見つけておいた  

#### popt
フィッティング後のパラメータを格納. 構成は init_params と同様
# Subclass
Subclassは3つ存在していて用途別に分類した.
## Visualize
### plot
fittingが適切に行われたかを確認
## SubFunction
### bragg
bragg条件に基づく関数で,以下delta関数で用いる.  
numpyの三角関数計算はrad単位で行われるが,XRDのデータはdegree単位であるため変換を挟んでいる.  
**出力:deltaを代入したときの絶対値誤差(scalar)**
### max_intensity
初期値の設定に測定結果の最大値と対応する角度が必要となる  
**出力:{対応するx,tの最大値}(vector)**
### delta
&Delta;&theta;の近似解を計算する.  
&Delta;&theta;の値が高々0.5(degree)であること,XRDの測定幅から有効数字が下3桁であることを考えてこの実装にした.  
**出力:deltaの計算解(scalar)**
### noise
ヒストグラムのビークは中心に位置する.そのためヒストグラムの前後100点の平均値をノイズの初期値とした.  
**出力:noise(scalar)**
## FittingFunction
curve fitting を行う際に使用する関数群
### ・gauss
入力に対応するガウス関数のyを返す  
**引数：ｘ(vector), params(a,b,c)**  
**返り値：入力したｘ(vector)に対応するy(vector)**
### ・gauss_puls
ka1とka2に対応するガウス関数を重ね合わせた結果を出力する関数  
**引数：ｘ(vector), params(a,b,c)**  
**返り値：入力した

File: fitting.csv
200thetas,200intensity,211thetas,211intensity,220thetas,220intensity,310thetas,310intensity,222thetas,222intensity
27.5,0.00168,34.0,0.00120045,40.0,0.00221651,45.0,0.00297935,49.5,0.00158618
27.518,0.00173383,34.018,0.00123481,40.018,0.0023017,45.018,0.00308397,49.518,0.00163248
27.536,0.00179028,34.036,0.00127067,40.036,0.00239189,45.036,0.0031942,49.536,0.00168084
27.554,0.00184954,34.054,0.00130811,40.054,0.00248748,45.054,0.00331045,49.554,0.00173138
27.572,0.00191178,34.072,0.00134723,40.072,0.00258892,45.072,0.00343314,49.572,0.00178423
27.59,0.00197722,34.09,0.00138813,40.09,0.00269668,45.09,0.00356278,49.59,0.00183954
27.608,0.00204607,34.108,0.00143092,40.108,0.0028113,45.108,0.0036999,49.608,0.00189746
27.626,0.00211858,34.126,0.00147573,40.126,0.00293339,45.126,0.00384507,49.626,0.00195815
27.644,0.00219502,34.144,0.00152266,40.144,0.00306359,45.144,0.00399895,49.644,0.00202181
27.662,0.00227566,34.162,0.00157187,40.162,0.00320266,45.162,0.00416223,49.662,0.00208861
27.68,0.00236082,34.18,0.00162351,40.18,0.0033514,45.18,0.00433572,49.68,0.00215878
27.698,0.00245086,34.198,0.00167773,40.198,0.00351073,45.198,0.00452026,49.698,0.00223255
27.716,0.00254613,34.216,0.00173471,40.216,0.00368169,45.216,0.00471682,49.716,0.00231015
27.734,0.00264707,34.234,0.00179464,40.234,0.00386543,45.234,0.00492646,49.734,0.00239187
27.752,0.00275413,34.252,0.00185773,40.252,0.00406325,45.252,0.00515037,49.752,0.00247801
27.77,0.00286781,34.27,0.0019242,40.27,0.00427664,45.27,0.00538988,49.77,0.00256887
27.788,0.00298867,34.288,0.00199431,40.288,0.00450726,45.288,0.00564645,49.788,0.00266482
27.806,0.00311732,34.306,0.00206831,40.306,0.00475702,45.306,0.00592175,49.806,0.00276625
27.824,0.00325445,34.324,0.00214651,40.324,0.00502809,45.324,0.00621764,49.824,0.00287357
27.842,0.00340083,34.342,0.00222922,40.342,0.00532297,45.342,0.00653623,49.842,0.00298725
27.86,0.00355729,34.36,0.00231681,40.36,0.00564452,45.36,0.00687988,49.86,0.00310781
27.878,0.0037248,34.378,0.00240966,40.378,0.00599604,45.378,0.0072513,49.878,0.00323581
27.896,0.0039044,34.396,0.00250819,40.396,0.00638139,45.396,0.00765354,49.896,0.00337188
27.914,0.00409729,34.414,0.00261289,40.414,0.00680501,45.414,0.00809012,49.914,0.00351669
27.932,0.00430482,34.432,0.00272428,40.432,0.00727216,45.432,0.00856502,49.932,0.00367104
27.95,0.0045285,34.45,0.00284294,40.45,0.00778898,45.45,0.00908287,49.95,0.00383575
27.968,0.00477004,34.468,0.00296952,40.468,0.00836275,45.468,0.00964898,49.968,0.00401179
27.986,0.00503141,34.486,0.00310473,40.486,0.00900213,45.486,0.0102695,49.986,0.00420022
28.004,0.00531482,34.504,0.00324939,40.504,0.00971748,45.504,0.0109517,50.004,0.00440221
28.022,0.00562282,34.522,0.00340438,40.522,0.0105213,45.522,0.0117038,50.022,0.00461912
28.04,0.00595834,34.54,0.00357071,40.54,0.0114287,45.54,0.0125359,50.04,0.00485243
28.058,0.00632473,34.558,0.00374953,40.558,0.0124582,45.558,0.0134595,50.058,0.00510385
28.076,0.00672592,34.576,0.0039421,40.576,0.0136327,45.576,0.0144885,50.076,0.00537528
28.094,0.00716642,34.594,0.00414988,40.594,0.0149806,45.594,0.0156395,50.094,0.00566892
28.112,0.00765154,34.612,0.00437451,40.612,0.0165374,45.612,0.0169326,50.112,0.00598723
28.13,0.0081875,34.63,0.00461784,40.63,0.0183485,45.63,0.0183917,50.13,0.00633308
28.148,0.00878163,34.648,0.00488203,40.648,0.0204719,45.648,0.0200465,50.148,0.0067097
28.166,0.00944263,34.666,0.00516951,40.666,0.0229832,45.666,0.0219334,50.166,0.00712087
28.184,0.0101809,34.684,0.0054831,40.684,0.025982,45.684,0.0240973,50.184,0.00757091
28.202,0.0110089,34.702,0.00582606,40.702,0.0296018,45.702,0.0265948,50.202,0.00806489
28.22,0.0119418,34.72,0.00620216,40.72,0.034024,45.72,0.0294973,50.22,0.00860869
28.238,0.0129979,34.738,0.00661581,40.738,0.039501,45.738,0.0328964,50.238,0.00920922
28.256,0.0141998,34.756,0.00707215,40.756,0.0463905,45.756,0.0369103,50.256,0.00987463
28.274,0.0155754,34.774,0.00757727,40.774,0.0552119,45.774,0.0416944,50.274,0.0106146
28.292,0.0171599,34.792,0.00813833,40.792,0.0667401,45.792,0.0474552,50.292,0.0114406
28.31,0.0189973,34.81,0.00876391,40.81,0.0821657,45.81,0.054472,50.31,0.0123664
28.328,0.0211441,34.828,0.00946424,40.828,0.103379,45.828,0.0631285,50.328,0.0134089
28.346,0.0236732,34.846,0.0102517,40.846,0.133489,45.846,0.0739619,50.346,0.0145882
28.364,0.0266801,34.864,0.0111413,40.864,0.177779,45.864,0.0877396,50.364,0.0159293
28.382,0.0302918,34.882,0.0121513,40.882,0.245445,45.882,0.105582,50.382,0.017463
28.4,0.0346797,34.9,0.0133046,40.9,0.352228,45.9,0.129158,50.4,0.0192278
28.418,0.0400798,34.918,0.0146292,40.918,0.520979,45.918,0.161014,50.418,0.0212721
28.436,0.0468231,34.936,0.0161609,40.936,0.760217,45.936,0.205089,50.436,0.0236578
28.454,0.0553843,34.954,0.0179447,40.954,0.97378,45.954,0.267498,50.454,0.0264645
28.472,0.066462,34.972,0.0200387,40.972,0.948768,45.972,0.357415,50.472,0.0297962
28.49,0.0811121,34.99,0.0225187,40.99,0.716008,45.99,0.486737,50.49,0.0337909
28.508,0.10098,35.008,0.0254848,41.008,0.486659,46.008,0.663028,50.508,0.038634
28.526,0.128715,35.026,0.0290714,41.026,0.330188,46.026,0.862758,50.526,0.0445796
28.544,0.168714,35.044,0.033462,41.044,0.231594,46.044,0.993027,50.544,0.0519825
28.562,0.22846,35.062,0.0389125,41.062,0.16884,46.062,0.9505,50.562,0.0613481
28.58,0.32062,35.08,0.045787,41.08,0.127499,46.08,0.772654,50.58,0.0734147
28.598,0.464539,35.098,0.0546169,41.098,0.0992141,46.098,0.576864,50.598,0.0892877
28.616,0.676471,35.116,0.0661992,41.116,0.0791718,46.116,0.421961,50.616,0.110669
28.634,0.912634,35.134,0.0817663,41.134,0.0645249,46.134,0.312171,50.634,0.140257
28.652,0.994946,35.152,0.103289,41.152,0.0535316,46.152,0.236185,50.652,0.18244
28.67,0.828974,35.17,0.134037,41.17,0.0450881,46.17,0.183094,50.67,0.244473
28.688,0.588435,35.188,0.179624,41.188,0.0384725,46.188,0.145212,50.688,0.338149
28.706,0.402509,35.206,0.249922,41.206,0.0331984,46.206,0.117531,50.706,0.480356
28.724,0.280797,35.224,0.361949,41.224,0.0289294,46.224,0.0968298,50.724,0.683074
28.742,0.202838,35.242,0.539989,41.242,0.0254276,46.242,0.0810141,50.742,0.905946
28.76,0.15173,35.26,0.788357,41.26,0.0225208,46.26,0.0686966,50.76,0.998664
28.778,0.117052,35.278,0.987623,41.278,0.0200823,46.278,0.0589376,50.778,0.864659
28.796,0.0926992,35.296,0.922422,41.296,0.0180173,46.296,0.0510867,50.796,0.637194
28.814,0.0750534,35.314,0.674229,41.314,0.0162536,46.314,0.0446845,50.814,0.446447
28.832,0.0619118,35.332,0.452541,41.332,0.0147355,46.332,0.0393999,50.832,0.315647
28.85,0.0518886,35.35,0.306389,41.35,0.0134197,46.35,0.0349901,50.85,0.229676
28.868,0.044084,35.368,0.215267,41.368,0.012272,46.368,0.031274,50.868,0.172488
28.886,0.0378964,35.386,0.15737,41.386,0.0112649,46.386,0.0281148,50.886,0.133357
28.904,0.0329127,35.404,0.119175,41.404,0.0103765,46.404,0.0254075,50.904,0.105735
28.922,0.0288426,35.422,0.092979,41.422,0.00958883,46.422,0.0230703,50.922,0.0856597
28.94,0.0254774,35.44,0.0743677,41.44,0.00888733,46.44,0.0210393,50.94,0.0706798
28.958,0.0226646,35.458,0.0607321,41.458,0.0082599,46.458,0.0192636,50.958,0.0592411
28.976,0.0202902,35.476,0.0504736,41.476,0.00769647,46.476,0.0177023,50.976,0.0503278
28.994,0.0182682,35.494,0.0425778,41.494,0.00718866,46.494,0.0163224,50.994,0.0432583
29.012,0.0165325,35.512,0.0363795,41.512,0.00672939,46.512,0.015097,51.012,0.0375632
29.03,0.0150318,35.53,0.0314297,41.53,0.00631268,46.53,0.014004,51.03,0.0329117
29.048,0.0137256,35.548,0.0274171,41.548,0.00593344,46.548,0.0130251,51.048,0.0290659
29.066,0.0125819,35.566,0.024121,41.566,0.00558731,46.566,0.0121449,51.066,0.0258515
29.084,0.0115749,35.584,0.0213815,41.584,0.00527056,46.584,0.0113507,51.084,0.0231385
29.102,0.0106838,35.602,0.0190809,41.602,0.00497996,46.602,0.0106317,51.102,0.0208284
29.12,0.00989137,35.62,0.0171306,41.62,0.00471271,46.62,0.00997865,51.12,0.0188458
29.138,0.00918372,35.638,0.0154633,41.638,0.00446638,46.638,0.00938381,51.138,0.0171319
29.156,0.00854917,35.656,0.0140271,41.656,0.00423885,46.656,0.00884048,51.156,0.0156404
29.174,0.00797803,35.674,0.0127812,41.674,0.00402824,46.674,0.00834287,51.174,0.0143347
29.192,0.00746213,35.692,0.0116937,41.692,0.00383294,46.692,0.00788603,51.192,0.0131852
29.21,0.00699459,35.71,0.0107388,41.71,0.00365148,46.71,0.00746561,51.21,0.0121682
29.228,0.00656956,35.728,0.0098959,41.728,0.00348259,46.728,0.00707787,51.228,0.011264
29.246,0.00618205,35.746,0.00914821,41.746,0.00332515,46.746,0.0067195,51.246,0.0104566
29.264,0.00582778,35.764,0.00848194,41.764,0.00317813,46.764,0.00638762,51.264,0.0097328
29.282,0.00550306,35.782,0.00788571,41.782,0.00304065,46.782,0.00607968,51.282,0.00908139
29.3,0.0052047,35.8,0.00735006,41.8,0.00291188,46.8,0.00579345,51.3,0.00849308
29.318,0.00492992,35.818,0.00686708,41.818,0.00279112,46.818,0.00552693,51.318,0.00796
29.336,0.00467631,35.836,0.00643008,41.836,0.00267771,46.836,0.00527836,51.336,0.00747546
29.354,0.00444175,35.854,0.00603344,41.854,0.00257107,46.854,0.00504616,51.354,0.00703375
29.372,0.00422438,35.872,0.00567232,41.872,0.00247068,46.872,0.00482892,51.372,0.00662999
29.39,0.00402257,35.89,0.00534263,41.89,0.00237604,46.89,0.0046254,51.39,0.00625994
29.408,0.00383486,35.908,0.00504082,41.908,0.00228674,46.908,0.00443446,51.408,0.00591998
29.426,0.00365997,35.926,0.00476385,41.926,0.00220237,46.926,0.00425509,51.426,0.00560693
29.444,0.00349677,35.944,0.00450905,41.944,0.00212259,46.944,0.00408637,51.444,0.00531803
29.462,0.00334423,35.962,0.00427414,41.962,0.00204706,46.962,0.00392747,51.462,0.00505086
29.48,0.00320145,35.98,0.0040571,41.98,0.00197548,46.98,0.00377766,51.48,0.00480329
29.498,0.00306762,35.998,0.00385615,41.998,0.0019076,46.998,0.00363625,51.498,0.00457347
29.5,0.00305327,36.0,0.00383475,42.0,0.00190027,47.0,0.00362103,51.5,0.00454895